File: Data/5. CV/Undoped_pg3t_AgAgCl_2(notsuresinceitclose).txt
Potential applied (V);Time (s);WE(1).Current (A);WE(1).Potential (V);Scan;Index;Q+;Q-;Current range;Overload
0,00244140625;6,5013369835857;-7,9864501953125E-05;0,0023681640625;1;1;0;-0,00923120840942383;1 mA;
0,04638671875;6,94053698247683;-8,050537109375E-05;0,0464080810546875;1;19;0;-0,00923120840942383;1 mA;
0,09033203125;7,37973698136796;-0,0009752197265625;0,092376708984375;1;37;0;-0,00923120840942383;100 µA;Current overload
0,13427734375;7,81893698025908;-0,000981170654296875;0,135833740234375;1;55;0;-0,00923120840942383;100 µA;Current overload
0,17822265625;8,25813697915021;-0,000984466552734375;0,1796875;1;73;0;-0,00923120840942383;100 µA;Current overload
0,22216796875;8,69733697804134;-0,0009844970703125;0,22369384765625;1;91;0;-0,00923120840942383;100 µA;Current overload
0,26611328125;9,13653697693246;-0,00098541259765625;0,2674560546875;1;109;0;-0,00923120840942383;100 µA;Current overload
0,31005859375;9,57573697582359;-0,000989013671875;0,311431884765625;1;127;0;-0,00923120840942383;100 µA;Current overload
0,35400390625;10,0149369747147;-0,000990814208984375;0,355438232421875;1;145;0;-0,00923120840942383;100 µA;Current overload
0,39794921875;10,4541369736058;-8,2733154296875E-05;0,397705078125;1;163;0;-0,00923120840942383;1 mA;
0,44189453125;10,893336972497;-8,2489013671875E-05;0,44158935546875;1;181;0;-0,00923120840942383;1 mA;
0,48583984375;11,3325369713881;-8,1787109375E-05;0,485443115234375;1;199;0;-0,00923120840942383;1 mA;
0,52978515625;11,7717369702792;-8,1756591796875E-05;0,529388427734375;1;217;0;-0,00923120840942383;1 mA;
0,57373046875;12,2109369691703;-8,2977294921875E-05;0,573211669921875;1;235;0;-0,00923120840942383;1 mA;
0,61767578125;12,6501369680615;-8,2244873046875E-05;0,61724853515625;1;253;0;-0,00923120840942383;1 mA;
0,66162109375;13,0893369669526;-8,1512451171875E-05;0,6610107421875;1;271;0;-0,00923120840942383;1 mA;
0,70556640625;13,5285369658437;-8,160400390625E-05;0,70477294921875;1;289;0;-0,00923120840942383;1 mA;
0,74951171875;13,9677369647349;-8,111572265625E-05;0,74871826171875;1;307;0;-0,00923120840942383;1 mA;
0,79345703125;14,406936963626;-8,2000732421875E-05;0,79254150390625;1;325;0;-0,00923120840942383;1 mA;
0,83740234375;14,8461369625171;-8,2672119140625E-05;0,836181640625;1;343;0;-0,00923120840942383;1 mA;
0,88134765625;15,2853369614082;-8,16650390625E-05;0,88043212890625;1;361;0;-0,00923120840942383;1 mA;
0,92529296875;15,7245369602994;-6,9305419921875E-05;0,924072265625;1;379;0;-0,00923120840942383;1 mA;
0,96923828125;16,1637369591905;-8,1451416015625E-05;0,96771240234375;1;397;0;-0,00923120840942383;1 mA;
0,98876953125;16,6029369580816;-8,1451416015625E-05;0,98724365234375;1;415;0;-0,00923120840942383;1 mA;
0,94482421875;17,0421369569727;-8,2672119140625E-05;0,94329833984375;1;433;0;-0,00923120840942383;1 mA;
0,90087890625;17,4813369558639;-8,21533203125E-05;0,89935302734375;1;451;0;-0,00923120840942383;1 mA;
0,85693359375;17,920536954755;-8,10546875E-05;0,855712890625;1;469;0;-0,00923120840942383;1 mA;
0,81298828125;18,3597369536461;-8,2061767578125E-05;0,81207275390625;1;487;0;-0,00923120840942383;1 mA;
0,76904296875;18,7989369525372;-8,1756591796875E-05;0,767822265625;1;505;0;-0,00923120840942383;1 mA;
0,72509765625;19,2381369514284;-8,221435546875E-05;0,72430419921875;1;523;0;-0,00923120840942383;1 mA;
0,68115234375;19,6773369503195;-8,2763671875E-05;0,680511474609375;1;541;0;-0,00923120840942383;1 mA;
0,63720703125;20,1165369492106;-8,1939697265625E-05;0,636688232421875;1;559;0;-0,00923120840942383;1 mA;
0,59326171875;20,5557369481018;-8,14208984375E-05;0,592803955078125;1;577;0;-0,00923120840942383;1 mA;
0,54931640625;20,9949369469929;-8,245849609375E-05;0,548797607421875;1;595;0;-0,00923120840942383;1 mA;
0,50537109375;21,434136945884;-8,2275390625E-05;0,50494384765625;1;613;0;-0,00923120840942383;1 mA;
0,46142578125;21,8733369447751;-8,3282470703125E-05;0,46112060546875;1;631;0;-0,00923120840942383;1 mA;
0,41748046875;22,3125369436663;-8,2305908203125E-05;0,417236328125;1;649;0;-0,00923120840942383;1 mA;
0,37353515625;22,7517369425574;-6,146240234375E-06;0,373077392578125;1;667;0;-0,00923120840942383;1 mA;
0,32958984375;23,1909369414485;-8,3038330078125E-05;0,329345703125;1;685;0;-0,00923120840942383;1 mA;
0,28564453125;23,6301369403396;-8,2489013671875E-05;0,28533935546875;1;703;0;-0,00923120840942383;1 mA;
0,24169921875;24,0693369392308;-8,2061767578125E-05;0,241607666015625;1;721;0;-0,00923120840942383;1 mA;
0,19775390625;24,5085369381219;-8,30078125E-05;0,197509765625;1;739;0;-0,00923120840942383;1 mA;
0,15380859375;24,947736937013;-8,1634521484375E-05;0,153564453125;1;757;0;-0,00923120840942383;1 mA;
0,10986328125;25,3869369359041;-8,2183837890625E-05;0,109771728515625;1;775;0;-0,00923120840942383;1 mA;
0,06591796875;25,8261369347953;-8,160400390625E-05;0,0657958984375;1;793;0;-0,00923120840942383;1 mA;
0,02197265625;26,2653369336864;-8,1146240234375E-05;0,0220458984375;1;811;0;-0,00923120840942383;1 mA;
-0,02197265625;26,7045369325775;-8,1512451171875E-05;-0,0217742919921875;1;829;0;-0,00923120840942383;1 mA;
-0,06591796875;27,1437369314687;-0,00099249267578125;-0,063873291015625;1;847;0;-0,00923120840942383;100 µA;Current overload
-0,10986328125;27,5829369303598;-0,000992462158203125;-0,107818603515625;1;865;0;-0,00923120840942383;100 µA;Current overload
-0,15380859375;28,0221369292509;-0,0009921875;-0,151458740234375;1;883;0;-0,00923120840942383;100 µA;Current overload
-0,19775390625;28,461336928142;-0,0009920654296875;-0,195526123046875;1;901;0;-0,00923120840942383;100 µA;Current overload
-0,24169921875;28,9005369270332;-0,0009920654296875;-0,239227294921875;1;919;0;-0,00923120840942383;100 µA;Current overload
-0,28564453125;29,3397369259243;-0,000992095947265625;-0,28289794921875;1;937;0;-0,00923120840942383;100 µA;Current overload
-0,32958984375;29,7789369248154;-0,0001285400390625;-0,328399658203125;1;955;0;-0,00923120840942383;100 µA;
-0,37353515625;30,2181369237065;-8,2672119140625E-05;-0,372283935546875;1;973;0;-0,00923120840942383;1 mA;
-0,41748046875;30,6573369225977;-8,3648681640625E-05;-0,416168212890625;1;991;0;-0,00923120840942383;1 mA;
-0,46142578125;31,0965369214888;-8,404541015625E-05;-0,45989990234375;1;1009;0;-0,00923120840942383;1 mA;
-0,50537109375;31,5357369203799;-8,4442138671875E-05;-0,503662109375;1;1027;0;-0,00923120840942383;1 mA;
-0,54931640625;31,974936919271;-8,43505859375E-05;-0,547515869140625;1;1045;0;-0,00923120840942383;1 mA;
-0,59326171875;32,4141369181622;-8,2977294921875E-05;-0,59130859375;1;1063;0;-0,00923120840942383;1 mA;
-0,63720703125;32,8533369170533;-8,41064453125E-05;-0,6351318359375;1;1081;0;-0,00923120840942383;1 mA;
-0,68115234375;33,2925369159444;-8,4320068359375E-05;-0,679046630859375;1;1099;0;-0,00923120840942383;1 mA;
-0,72509765625;33,7317369148356;-8,392333984375E-05;-0,72296142578125;1;1117;0;-0,00923120840942383;1 mA;
-0,76904296875;34,1709369137267;-8,3648681640625E-05;-0,7672119140625;1;1135;0;-0,00923120840942383;1 mA;
-0,81298828125;34,6101369126178;-8,343505859375E-05;-0,81085205078125;1;1153;0;-0,00923120840942383;1 mA;
-0,85693359375;35,0493369115089;-8,38623046875E-05;-0,85479736328125;1;1171;0;-0,00923120840942383;1 mA;
-0,90087890625;35,4885369104001;-8,38623046875E-05;-0,8990478515625;1;1189;0;-0,00923120840942383;1 mA;
-0,94482421875;35,9277369092912;-8,26416015625E-05;-0,94268798828125;1;1207;0;-0,00923120840942383;1 mA;
-0,98876953125;36,3669369081823;-8,251953125E-05;-0,98724365234375;1;1225;0;-0,00923120840942383;1 mA;
-0,96923828125;36,8061369070734;-7,6202392578125E-05;-0,96710205078125;1;1243;0;-0,00923120840942383;1 mA;
-0,92529296875;37,2453369059646;-8,2733154296875E-05;-0,9234619140625;1;1261;0;-0,00923120840942383;1 mA;
-0,88134765625;37,6845369048557;-8,38623046875E-05;-0,87921142578125;1;1279;0;-0,00923120840942383;1 mA;
-0,83740234375;38,1237369037468;-8,3099365234375E-05;-0,83526611328125;1;1297;0;-0,00923120840942383;1 mA;
-0,79345703125;38,5629369026379;-8,0963134765625E-05;-0,791015625;1;1315;0;-0,00923120840942383;1 mA;
-0,74951171875;39,0021369015291;-8,3709716796875E-05;-0,747344970703125;1;1333;0;-0,00923120840942383;1 mA;
-0,70556640625;39,4413369004202;-8,33740234375E-05;-0,703369140625;1;1351;0;-0,00923120840942383;1 mA;
-0,66162109375;39,8805368993113;-8,4442138671875E-05;-0,659515380859375;1;1369;0;-0,00923120840942383;1 mA;
-0,61767578125;40,3197368982025;-8,3038330078125E-05;-0,61566162109375;1;1387;0;-0,00923120840942383;1 mA;
-0,57373046875;40,7589368970936;-8,2672119140625E-05;-0,571868896484375;1;1405;0;-0,00923120840942383;1 mA;
-0,52978515625;41,1981368959847;-8,3770751953125E-05;-0,528167724609375;1;1423;0;-0,00923120840942383;1 mA;
-0,48583984375;41,6373368948758;-8,4503173828125E-05;-0,4842529296875;1;1441;0;-0,00923120840942383;1 mA;
-0,44189453125;42,076536893767;-8,4136962890625E-05;-0,440460205078125;1;1459;0;-0,00923120840942383;1 mA;
-0,39794921875;42,5157368926581;-8,3648681640625E-05;-0,39678955078125;1;1477;0;-0,00923120840942383;1 mA;
-0,35400390625;42,9549368915492;-8,319091796875E-05;-0,35302734375;1;1495;0;-0,00923120840942383;1 mA;
-0,31005859375;43,3941368904403;-8,392333984375E-05;-0,309112548828125;1;1513;0;-0,00923120840942383;1 mA;
-0,26611328125;43,8333368893315;-0,000992279052734375;-0,263214111328125;1;1531;0;-0,00923120840942383;100 µA;Current overload
-0,22216796875;44,2725368882226;-0,000992279052734375;-0,219757080078125;1;1549;0;-0,00923120840942383;100 µA;Current overload
-0,17822265625;44,7117368871137;-0,0009923095703125;-0,17596435546875;1;1567;0;-0,00923120840942383;100 µA;Current overload
-0,13427734375;45,1509368860048;-0,000992340087890625;-0,13214111328125;1;1585;0;-0,00923120840942383;100 µA;Current overload
-0,09033203125;45,590136884896;-0,00099224853515625;-0,088409423828125;1;1603;0;-0,00923120840942383;100 µA;Current overload
-0,04638671875;46,0293368837871;-0,00099224853515625;-0,045928955078125;1;1621;0;-0,00923120840942383;100 µA;Current overload
-0,00244140625;46,4685368826782;-0,000991973876953125;-0,00215759277343749;1;1639;0;-0,00923120840942383;100 µA;Current overload
0,04150390625;46,9077368815693;-8,0902099609375E-05;0,0416412353515625;2;1657;0;-0,00838479595458985;1 mA;
0,08544921875;47,3469368804605;-8,0352783203125E-05;0,085479736328125;2;1675;0;-0,00838479595458985;1 mA;
0,12939453125;47,7861368793516;-8,056640625E-05;0,12921142578125;2;1693;0;-0,00838479595458985;1 mA;
0,17333984375;48,2253368782427;-8,0047607421875E-05;0,1732177734375;2;1711;0;-0,00838479595458985;1 mA;
0,21728515625;48,6645368771339;-7,9559326171875E-05;0,217071533203125;2;1729;0;-0,00838479595458985;1 mA;
0,26123046875;49,103736876025;-7,91015625E-05;0,260833740234375;2;1747;0;-0,00838479595458985;1 mA;
0,30517578125;49,5429368749161;-8,45947265625E-05;0,30499267578125;2;1765;0;-0,00838479595458985;1 mA;
0,34912109375;49,9821368738072;-8,2244873046875E-05;0,348846435546875;2;1783;0;-0,00838479595458985;1 mA;
0,39306640625;50,4213368726984;-8,23974609375E-05;0,39276123046875;2;1801;0;-0,00838479595458985;1 mA;
0,43701171875;50,8605368715895;-8,3160400390625E-05;0,4366455078125;2;1819;0;-0,00838479595458985;1 mA;
0,48095703125;51,2997368704806;-8,4136962890625E-05;0,480499267578125;2;1837;0;-0,00838479595458985;1 mA;
0,52490234375;51,7389368693717;-8,514404296875E-05;0,52447509765625;2;1855;0;-0,00838479595458985;1 mA;
0,56884765625;52,1781368682629;-8,404541015625E-05;0,568359375;2;1873;0;-0,00838479595458985;1 mA;
0,61279296875;52,617336867154;-8,4625244140625E-05;0,6123046875;2;1891;0;-0,00838479595458985;1 mA;
0,65673828125;53,0565368660451;-8,3221435546875E-05;0,656036376953125;2;1909;0;-0,00838479595458985;1 mA;
0,70068359375;53,4957368649362;-8,575439453125E-05;0,6998291015625;2;1927;0;-0,00838479595458985;1 mA;
0,74462890625;53,9349368638274;-9,47265625E-05;0,743743896484375;2;1945;0;-0,00838479595458985;1 mA;
0,78857421875;54,3741368627185;-9,100341796875E-05;0,78765869140625;2;1963;0;-0,00838479595458985;1 mA;
0,83251953125;54,8133368616096;-0,0001102294921875;0,83160400390625;2;1981;0;-0,00838479595458985;1 mA;
0,87646484375;55,2525368605008;-9,5703125E-05;0,87493896484375;2;1999;0;-0,00838479595458985;1 mA;
0,92041015625;55,6917368593919;-0,000103485107421875;0,919189453125;2;2017;0;-0,00838479595458985;1 mA;
0,96435546875;56,130936858283;-0,000113189697265625;0,96282958984375;2;2035;0;-0,00838479595458985;1 mA;
0,99365234375;56,5701368571741;-0,000100250244140625;0,992431640625;2;2053;0;-0,00838479595458985;1 mA;
0,94970703125;57,0093368560653;-9,3353271484375E-05;0,94879150390625;2;2071;0;-0,00838479595458985;1 mA;
0,90576171875;57,4485368549564;-6,1187744140625E-05;0,90423583984375;2;2089;0;-0,00838479595458985;1 mA;
0,86181640625;57,8877368538475;-8,0596923828125E-05;0,860595703125;2;2107;0;-0,00838479595458985;1 mA;
0,81787109375;58,3269368527386;-8,58154296875E-05;0,81695556640625;2;2125;0;-0,00838479595458985;1 mA;
0,77392578125;58,7661368516298;-8,251953125E-05;0,77301025390625;2;2143;0;-0,00838479595458985;1 mA;
0,72998046875;59,2053368505209;-5,04455566406251E-06;0,72900390625;2;2161;0;-0,00838479595458985;1 mA;
0,68603515625;59,644536849412;-8,2427978515625E-05;0,685302734375;2;2179;0;-0,00838479595458985;1 mA;
0,64208984375;60,0837368483031;-8,1451416015625E-05;0,641510009765625;2;2197;0;-0,00838479595458985;1 mA;
0,59814453125;60,5229368471943;-8,416748046875E-05;0,59765625;2;2215;0;-0,00838479595458985;1 mA;
0,55419921875;60,9621368460854;-0,000965118408203125;0,555389404296875;2;2233;0;-0,00838479595458985;100 µA;Current overload
0,51025390625;61,4013368449765;-0,00096624755859375;0,511505126953125;2;2251;0;-0,00838479595458985;100 µA;Current overload
0,46630859375;61,8405368438677;-0,000979034423828125;0,467529296875;2;2269;0;-0,00838479595458985;100 µA;Current overload
0,42236328125;62,2797368427588;-0,00098541259765625;0,423553466796875;2;2287;0;-0,00838479595458985;100 µA;Current overload
0,37841796875;62,7189368416499;-0,000990142822265625;0,379669189453125;2;2305;0;-0,00838479595458985;100 µA;Current overload
0,33447265625;63,158136840541;-0,00099102783203125;0,33575439453125;2;2323;0;-0,00838479595458985;100 µA;Current overload
0,29052734375;63,5973368394322;-8,7890625E-05;0,290496826171875;2;2341;0;-0,00838479595458985;1 mA;
0,24658203125;64,0365368383233;-8,69140625E-05;0,24627685546875;2;2359;0;-0,00838479595458985;1 mA;
0,20263671875;64,4757368372144;-8,8470458984375E-05;0,2027587890625;2;2377;0;-0,00838479595458985;1 mA;
0,15869140625;64,9149368361055;-8,734130859375E-05;0,15875244140625;2;2395;0;-0,00838479595458985;1 mA;
0,11474609375;65,3541368349967;-8,648681640625E-05;0,114715576171875;2;2413;0;-0,00838479595458985;1 mA;
0,07080078125;65,7933368338878;-9,0240478515625E-05;0,070831298828125;2;2431;0;-0,00838479595458985;1 mA;
0,02685546875;66,2325368327789;-7,57751464843751E-06;0,0268646240234375;2;2449;0;-0,00838479595458985;1 mA;
-0,01708984375;66,67173683167;-8,282470703125E-05;-0,0170196533203125;2;2467;0;-0,00838479595458985;1 mA;
-0,06103515625;67,1109368305612;-8,013916015625E-05;-0,0609130859375;2;2485;0;-0,00838479595458985;1 mA;
-0,10498046875;67,5501368294523;-7,8704833984375E-05;-0,104644775390625;2;2503;0;-0,00838479595458985;1 mA;
-0,14892578125;67,9893368283434;-7,8826904296875E-05;-0,148284912109375;2;2521;0;-0,00838479595458985;1 mA;
-0,19287109375;68,4285368272346;-7,94677734375E-05;-0,19219970703125;2;2539;0;-0,00838479595458985;1 mA;
-0,23681640625;68,8677368261257;-7,806396484375E-05;-0,23614501953125;2;2557;0;-0,00838479595458985;1 mA;
-0,28076171875;69,3069368250168;-7,7545166015625E-05;-0,279754638671875;2;2575;0;-0,00838479595458985;1 mA;
-0,32470703125;69,7461368239079;-7,720947265625E-05;-0,32373046875;2;2593;0;-0,00838479595458985;1 mA;
-0,36865234375;70,1853368227991;-8,2916259765625E-05;-0,367462158203125;2;2611;0;-0,00838479595458985;1 mA;
-0,41259765625;70,6245368216902;-0,000978759765625;-0,409576416015625;2;2629;0;-0,00838479595458985;100 µA;Current overload
-0,45654296875;71,0637368205813;-0,000985809326171875;-0,453277587890625;2;2647;0;-0,00838479595458985;100 µA;Current overload
-0,50048828125;71,5029368194724;-0,000988677978515625;-0,4971923828125;2;2665;0;-0,00838479595458985;100 µA;Current overload
-0,54443359375;71,9421368183636;-0,000988525390625;-0,541015625;2;2683;0;-0,00838479595458985;100 µA;Current overload
-0,58837890625;72,3813368172547;-0,00098834228515625;-0,584625244140625;2;2701;0;-0,00838479595458985;100 µA;Current overload
-0,63232421875;72,8205368161458;-0,000990692138671875;-0,628631591796875;2;2719;0;-0,00838479595458985;100 µA;Current overload
-0,67626953125;73,2597368150369;-0,00011724853515625;-0,673919677734375;2;2737;0;-0,00838479595458985;100 µA;
-0,72021484375;73,6989368139281;-8,04443359375E-05;-0,71807861328125;2;2755;0;-0,00838479595458985;1 mA;
-0,76416015625;74,1381368128192;-8,0474853515625E-05;-0,7623291015625;2;2773;0;-0,00838479595458985;1 mA;
-0,80810546875;74,5773368117103;-7,9498291015625E-05;-0,80596923828125;2;2791;0;-0,00838479595458985;1 mA;
-0,85205078125;75,0165368106015;-8,038330078125E-05;-0,84991455078125;2;2809;0;-0,00838479595458985;1 mA;
-0,89599609375;75,4557368094926;-8,06884765625E-05;-0,8941650390625;2;2827;0;-0,00838479595458985;1 mA;
-0,93994140625;75,8949368083837;-7,952880859375E-05;-0,9375;2;2845;0;-0,00838479595458985;1 mA;
-0,98388671875;76,3341368072748;-7,9498291015625E-05;-0,9820556640625;2;2863;0;-0,00838479595458985;1 mA;
-0,97412109375;76,773336806166;-7,9925537109375E-05;-0,9722900390625;2;2881;0;-0,00838479595458985;1 mA;
-0,93017578125;77,2125368050571;-7,84912109375E-05;-0,9283447265625;2;2899;0;-0,00838479595458985;1 mA;
-0,88623046875;77,6517368039482;-7,855224609375E-05;-0,88470458984375;2;2917;0;-0,00838479595458985;1 mA;
-0,84228515625;78,0909368028393;-7,818603515625E-05;-0,84014892578125;2;2935;0;-0,00838479595458985;1 mA;
-0,79833984375;78,5301368017305;-7,6690673828125E-05;-0,7965087890625;2;2953;0;-0,00838479595458985;1 mA;
-0,75439453125;78,9693368006216;-0,000937347412109375;-0,750152587890625;2;2971;0;-0,00838479595458985;100 µA;Current overload
-0,71044921875;79,4085367995127;-0,00093707275390625;-0,706695556640625;2;2989;0;-0,00838479595458985;100 µA;Current overload
-0,66650390625;79,8477367984038;-0,000957183837890625;-0,66278076171875;2;3007;0;-0,00838479595458985;100 µA;Current overload
-0,62255859375;80,286936797295;-0,000972930908203125;-0,618927001953125;2;3025;0;-0,00838479595458985;100 µA;Current overload
-0,57861328125;80,7261367961861;-0,000928924560546875;-0,575225830078125;2;3043;0;-0,00838479595458985;100 µA;Current overload
-0,53466796875;81,1653367950772;-0,000896942138671875;-0,531280517578125;2;3061;0;-0,00838479595458985;100 µA;Current overload
-0,49072265625;81,6045367939684;-0,000848419189453125;-0,487701416015625;2;3079;0;-0,00838479595458985;100 µA;Current overload
-0,44677734375;82,0437367928595;-7,4737548828125E-05;-0,445281982421875;2;3097;0;-0,00838479595458985;1 mA;
-0,40283203125;82,4829367917506;-7,4951171875E-05;-0,40155029296875;2;3115;0;-0,00838479595458985;1 mA;
-0,35888671875;82,9221367906417;-7,36083984375E-05;-0,357696533203125;2;3133;0;-0,00838479595458985;1 mA;
-0,31494140625;83,3613367895329;-7,196044921875E-05;-0,31396484375;2;3151;0;-0,00838479595458985;1 mA;
-0,27099609375;83,800536788424;-7,0892333984375E-05;-0,270111083984375;2;3169;0;-0,00838479595458985;1 mA;
-0,22705078125;84,2397367873151;-6,9610595703125E-05;-0,2261962890625;2;3187;0;-0,00838479595458985;1 mA;
-0,18310546875;84,6789367862062;-6,82373046875E-05;-0,18243408203125;2;3205;0;-0,00838479595458985;1 mA;
-0,13916015625;85,1181367850974;-6,7169189453125E-05;-0,138580322265625;2;3223;0;-0,00838479595458985;1 mA;
-0,09521484375;85,5573367839885;-6,4727783203125E-05;-0,094970703125;2;3241;0;-0,00838479595458985;1 mA;
-0,05126953125;85,9965367828796;-2,0751953125E-05;-0,05108642578125;2;3259;0;-0,00838479595458985;100 µA;
-0,00732421875;86,4357367817707;-0,000289642333984375;-0,00711669921874999;2;3277;0;-0,00838479595458985;100 µA;
0,03662109375;86,8749367806619;-6,414794921875E-05;0,0367462158203125;3;3295;0;-0,00668067696044924;1 mA;
0,08056640625;87,314136779553;-0,00029510498046875;0,0809326171875;3;3313;0;-0,00668067696044924;100 µA;
0,12451171875;87,7533367784441;-6,4300537109375E-05;0,12451171875;3;3331;0;-0,00668067696044924;1 mA;
0,16845703125;88,1925367773352;-6,48193359375E-05;0,16827392578125;3;3349;0;-0,00668067696044924;1 mA;
0,21240234375;88,6317367762264;-6,512451171875E-05;0,212188720703125;3;3367;0;-0,00668067696044924;1 mA;
0,25634765625;89,0709367751175;-6,658935546875E-05;0,256103515625;3;3385;0;-0,00668067696044924;1 mA;
0,30029296875;89,5101367740086;-6,65283203125E-05;0,300048828125;3;3403;0;-0,00668067696044924;1 mA;
0,34423828125;89,9493367728998;-6,610107421875E-05;0,343963623046875;3;3421;0;-0,00668067696044924;1 mA;
0,38818359375;90,3885367717909;-6,62841796875E-05;0,387847900390625;3;3439;0;-0,00668067696044924;1 mA;
0,43212890625;90,827736770682;-6,719970703125E-05;0,4317626953125;3;3457;0;-0,00668067696044924;1 mA;
0,47607421875;91,2669367695731;-6,976318359375E-05;0,475677490234375;3;3475;0;-0,00668067696044924;1 mA;
0,52001953125;91,7061367684643;-0,000450653076171875;0,52020263671875;3;3493;0;-0,00668067696044924;100 µA;Current overload
0,56396484375;92,1453367673554;-0,000476409912109375;0,564361572265625;3;3511;0;-0,00668067696044924;100 µA;Current overload
0,60791015625;92,5845367662465;-0,000479644775390625;0,6080322265625;3;3529;0;-0,00668067696044924;100 µA;Current overload
0,65185546875;93,0237367651376;-0,00048431396484375;0,65191650390625;3;3547;0;-0,00668067696044924;100 µA;Current overload
0,69580078125;93,4629367640288;-0,00050634765625;0,69586181640625;3;3565;0;-0,00668067696044924;100 µA;Current overload
0,73974609375;93,9021367629199;-0,000500579833984375;0,73956298828125;3;3583;0;-0,00668067696044924;100 µA;Current overload
0,78369140625;94,341336761811;-0,0004820556640625;0,78277587890625;3;3601;0;-0,00668067696044924;100 µA;Current overload
0,82763671875;94,7805367607021;-6,817626953125E-05;0,826416015625;3;3619;0;-0,00668067696044924;1 mA;
0,87158203125;95,2197367595933;-6,9793701171875E-05;0,870361328125;3;3637;0;-0,00668067696044924;1 mA;
0,91552734375;95,6589367584844;-6,97021484375E-05;0,9136962890625;3;3655;0;-0,00668067696044924;1 mA;
0,95947265625;96,0981367573755;-7,061767578125E-05;0,9588623046875;3;3673;0;-0,00668067696044924;1 mA;
0,99853515625;96,5373367562667;-6,964111328125E-05;0,99761962890625;3;3691;0;-0,00668067696044924;1 mA;
0,95458984375;96,9765367551578;-6,915283203125E-05;0,9527587890625;3;3709;0;-0,00668067696044924;1 mA;
0,91064453125;97,4157367540489;-6,99462890625E-05;0,90972900390625;3;3727;0;-0,00668067696044924;1 mA;
0,86669921875;97,85493675294;-6,92138671875E-05;0,865478515625;3;3745;0;-0,00668067696044924;1 mA;
0,82275390625;98,2941367518312;-6,99462890625E-05;0,821533203125;3;3763;0;-0,00668067696044924;1 mA;
0,77880859375;98,7333367507223;-4,6661376953125E-06;0,77789306640625;3;3781;0;-0,00668067696044924;1 mA;
0,73486328125;99,1725367496134;-6,854248046875E-05;0,73394775390625;3;3799;0;-0,00668067696044924;1 mA;
0,69091796875;99,6117367485045;-6,9610595703125E-05;0,690185546875;3;3817;0;-0,00668067696044924;1 mA;
0,64697265625;100,050936747396;-7,0098876953125E-05;0,646392822265625;3;3835;0;-0,00668067696044924;1 mA;
0,60302734375;100,490136746287;-0,0005601806640625;0,60333251953125;3;3853;0;-0,00668067696044924;100 µA;Current overload
0,55908203125;100,929336745178;-0,00059716796875;0,5594482421875;3;3871;0;-0,00668067696044924;100 µA;Current overload
0,51513671875;101,368536744069;-0,000614013671875;0,515625;3;3889;0;-0,00668067696044924;100 µA;Current overload
0,47119140625;101,80773674296;-0,0006224365234375;0,471771240234375;3;3907;0;-0,00668067696044924;100 µA;Current overload
0,42724609375;102,246936741851;-0,000656768798828125;0,428009033203125;3;3925;0;-0,00668067696044924;100 µA;Current overload
0,38330078125;102,686136740742;-0,000676666259765625;0,384246826171875;3;3943;0;-0,00668067696044924;100 µA;Current overload
0,33935546875;103,125336739634;-7,3394775390625E-05;0,339141845703125;3;3961;0;-0,00668067696044924;1 mA;
0,29541015625;103,564536738525;-7,232666015625E-05;0,29547119140625;3;3979;0;-0,00668067696044924;1 mA;
0,25146484375;104,003736737416;-7,2509765625E-05;0,251251220703125;3;3997;0;-0,00668067696044924;1 mA;
0,20751953125;104,442936736307;-5,09033203125E-05;0,207611083984375;3;4015;0;-0,00668067696044924;1 mA;
0,16357421875;104,882136735198;-7,318115234375E-05;0,163482666015625;3;4033;0;-0,00668067696044924;1 mA;
0,11962890625;105,321336734089;-7,50732421875E-05;0,119476318359375;3;4051;0;-0,00668067696044924;1 mA;
0,07568359375;105,76053673298;-7,3638916015625E-05;0,07568359375;3;4069;0;-0,00668067696044924;1 mA;
0,03173828125;106,199736731871;-7,3516845703125E-05;0,031829833984375;3;4087;0;-0,00668067696044924;1 mA;
-0,01220703125;106,638936730763;-7,403564453125E-05;-0,012005615234375;3;4105;0;-0,00668067696044924;1 mA;
-0,05615234375;107,078136729654;-7,501220703125E-05;-0,05596923828125;3;4123;0;-0,00668067696044924;1 mA;
-0,10009765625;107,517336728545;-7,440185546875E-05;-0,099700927734375;3;4141;0;-0,00668067696044924;1 mA;
-0,14404296875;107,956536727436;-7,550048828125E-05;-0,143524169921875;3;4159;0;-0,00668067696044924;1 mA;
-0,18798828125;108,395736726327;-7,489013671875E-05;-0,187225341796875;3;4177;0;-0,00668067696044924;1 mA;
-0,23193359375;108,834936725218;-0,000772796630859375;-0,2296142578125;3;4195;0;-0,00668067696044924;100 µA;Current overload
-0,27587890625;109,274136724109;-0,00078948974609375;-0,273590087890625;3;4213;0;-0,00668067696044924;100 µA;Current overload
-0,31982421875;109,713336723;-0,000789306640625;-0,317413330078125;3;4231;0;-0,00668067696044924;100 µA;Current overload
-0,36376953125;110,152536721892;-0,000789154052734375;-0,361083984375;3;4249;0;-0,00668067696044924;100 µA;Current overload
-0,40771484375;110,591736720783;-0,0007864990234375;-0,404876708984375;3;4267;0;-0,00668067696044924;100 µA;Current overload
-0,45166015625;111,030936719674;-0,0007767333984375;-0,44873046875;3;4285;0;-0,00668067696044924;100 µA;Current overload
-0,49560546875;111,470136718565;-6,890869140625E-05;-0,493896484375;3;4303;0;-0,00668067696044924;100 µA;
-0,53955078125;111,909336717456;-7,33642578125E-05;-0,537689208984375;3;4321;0;-0,00668067696044924;1 mA;
-0,58349609375;112,348536716347;-7,1807861328125E-05;-0,581634521484375;3;4339;0;-0,00668067696044924;1 mA;
-0,62744140625;112,787736715238;-7,183837890625E-05;-0,625396728515625;3;4357;0;-0,00668067696044924;1 mA;
-0,67138671875;113,226936714129;-7,16552734375E-05;-0,669219970703125;3;4375;0;-0,00668067696044924;1 mA;
-0,71533203125;113,666136713021;-7,196044921875E-05;-0,713348388671875;3;4393;0;-0,00668067696044924;1 mA;
-0,75927734375;114,105336711912;-7,2662353515625E-05;-0,75714111328125;3;4411;0;-0,00668067696044924;1 mA;
-0,80322265625;114,544536710803;-7,1441650390625E-05;-0,80047607421875;3;4429;0;-0,00668067696044924;1 mA;
-0,84716796875;114,983736709694;-7,2235107421875E-05;-0,84503173828125;3;4447;0;-0,00668067696044924;1 mA;
-0,89111328125;115,422936708585;-7,3516845703125E-05;-0,88897705078125;3;4465;0;-0,00668067696044924;1 mA;
-0,93505859375;115,862136707476;-7,3516845703125E-05;-0,9326171875;3;4483;0;-0,00668067696044924;1 mA;
-0,97900390625;116,301336706367;-7,3974609375E-05;-0,9765625;3;4501;0;-0,00668067696044924;1 mA;
-0,97900390625;116,740536705258;-7,3944091796875E-05;-0,97686767578125;3;4519;0;-0,00668067696044924;1 mA;
-0,93505859375;117,17973670415;-8,526611328125E-05;-0,9326171875;3;4537;0;-0,00668067696044924;100 µA;
-0,89111328125;117,618936703041;-7,5439453125E-05;-0,88897705078125;3;4555;0;-0,00668067696044924;1 mA;
-0,84716796875;118,058136701932;-7,5927734375E-05;-0,8453369140625;3;4573;0;-0,00668067696044924;1 mA;
-0,80322265625;118,497336700823;-7,415771484375E-05;-0,80108642578125;3;4591;0;-0,00668067696044924;1 mA;
-0,75927734375;118,936536699714;-7,5469970703125E-05;-0,7568359375;3;4609;0;-0,00668067696044924;1 mA;
-0,71533203125;119,375736698605;-7,5103759765625E-05;-0,713134765625;3;4627;0;-0,00668067696044924;1 mA;
-0,67138671875;119,814936697496;-7,421875E-05;-0,66937255859375;3;4645;0;-0,00668067696044924;1 mA;
-0,62744140625;120,254136696387;-7,4462890625E-05;-0,62548828125;3;4663;0;-0,00668067696044924;1 mA;
-0,58349609375;120,693336695279;-7,3028564453125E-05;-0,581573486328125;3;4681;0;-0,00668067696044924;1 mA;
-0,53955078125;121,13253669417;-7,379150390625E-05;-0,537933349609375;3;4699;0;-0,00668067696044924;1 mA;
-0,49560546875;121,571736693061;-7,33642578125E-05;-0,493988037109375;3;4717;0;-0,00668067696044924;1 mA;
-0,45166015625;122,010936691952;-7,2052001953125E-05;-0,45025634765625;3;4735;0;-0,00668067696044924;1 mA;
-0,40771484375;122,450136690843;-7,177734375E-05;-0,406280517578125;3;4753;0;-0,00668067696044924;1 mA;
-0,36376953125;122,889336689734;-7,1441650390625E-05;-0,362640380859375;3;4771;0;-0,00668067696044924;1 mA;
-0,31982421875;123,328536688625;-7,2662353515625E-05;-0,319061279296875;3;4789;0;-0,00668067696044924;1 mA;
-0,27587890625;123,767736687517;-7,2906494140625E-05;-0,275177001953125;3;4807;0;-0,00668067696044924;1 mA;
-0,23193359375;124,206936686408;-5,0079345703125E-06;-0,231201171875;3;4825;0;-0,00668067696044924;1 mA;
-0,18798828125;124,646136685299;-7,3394775390625E-05;-0,187530517578125;3;4843;0;-0,00668067696044924;1 mA;
-0,14404296875;125,08533668419;-7,6690673828125E-05;-0,14361572265625;3;4861;0;-0,00668067696044924;1 mA;
-0,10009765625;125,524536683081;-7,666015625E-05;-0,099761962890625;3;4879;0;-0,00668067696044924;1 mA;
-0,05615234375;125,963736681972;-7,586669921875E-05;-0,055908203125;3;4897;0;-0,00668067696044924;1 mA;
-0,01220703125;126,402936680863;-7,5836181640625E-05;-0,01212158203125;3;4915;0;-0,00668067696044924;1 mA;
0,03173828125;126,842136679754;-7,6019287109375E-05;0,031756591796875;4;4933;0;-0,00780637037963868;1 mA;
0,07568359375;127,281336678646;-7,6690673828125E-05;0,075775146484375;4;4951;0;-0,00780637037963868;1 mA;
0,11962890625;127,720536677537;-7,7239990234375E-05;0,11956787109375;4;4969;0;-0,00780637037963868;1 mA;
0,16357421875;128,159736676428;-7,71484375E-05;0,163421630859375;4;4987;0;-0,00780637037963868;1 mA;
0,20751953125;128,598936675319;-7,6568603515625E-05;0,20721435546875;4;5005;0;-0,00780637037963868;1 mA;
0,25146484375;129,03813667421;-7,8582763671875E-05;0,2513427734375;4;5023;0;-0,00780637037963868;1 mA;
0,29541015625;129,477336673101;-7,7484130859375E-05;0,295166015625;4;5041;0;-0,00780637037963868;1 mA;
0,33935546875;129,916536671992;-1,16729736328125E-05;0,339111328125;4;5059;0;-0,00780637037963868;1 mA;
0,38330078125;130,355736670883;-7,7423095703125E-05;0,38311767578125;4;5077;0;-0,00780637037963868;1 mA;
0,42724609375;130,794936669775;-7,72705078125E-05;0,426910400390625;4;5095;0;-0,00780637037963868;1 mA;
0,47119140625;131,234136668666;-7,794189453125E-05;0,47088623046875;4;5113;0;-0,00780637037963868;1 mA;
0,51513671875;131,673336667557;-7,806396484375E-05;0,5146484375;4;5131;0;-0,00780637037963868;1 mA;
0,55908203125;132,112536666448;-7,696533203125E-05;0,55859375;4;5149;0;-0,00780637037963868;1 mA;
0,60302734375;132,551736665339;-7,666015625E-05;0,602508544921875;4;5167;0;-0,00780637037963868;1 mA;
0,64697265625;132,99093666423;-7,65380859375E-05;0,646270751953125;4;5185;0;-0,00780637037963868;1 mA;
0,69091796875;133,430136663121;-7,7362060546875E-05;0,690155029296875;4;5203;0;-0,00780637037963868;1 mA;
0,73486328125;133,869336662012;-7,80029296875E-05;0,734039306640625;4;5221;0;-0,00780637037963868;1 mA;
0,77880859375;134,308536660904;-7,58056640625E-05;0,7781982421875;4;5239;0;-0,00780637037963868;1 mA;
0,82275390625;134,747736659795;-7,7392578125E-05;0,82122802734375;4;5257;0;-0,00780637037963868;1 mA;
0,86669921875;135,186936658686;-7,72705078125E-05;0,86517333984375;4;5275;0;-0,00780637037963868;1 mA;
0,91064453125;135,626136657577;-7,769775390625E-05;0,909423828125;4;5293;0;-0,00780637037963868;1 mA;
0,95458984375;136,065336656468;-7,7850341796875E-05;0,953369140625;4;5311;0;-0,00780637037963868;1 mA;
0,99853515625;136,504536655359;-7,720947265625E-05;0,997314453125;4;5329;0;-0,00780637037963868;1 mA;
0,95947265625;136,94373665425;-4,6417236328125E-06;0,958251953125;4;5347;0;-0,00780637037963868;1 mA;
0,91552734375;137,382936653141;-7,9071044921875E-05;0,9136962890625;4;5365;0;-0,00780637037963868;1 mA;
0,87158203125;137,822136652033;-7,9193115234375E-05;0,870361328125;4;5383;0;-0,00780637037963868;1 mA;
0,82763671875;138,261336650924;-7,8704833984375E-05;0,82672119140625;4;5401;0;-0,00780637037963868;1 mA;
0,78369140625;138,700536649815;-7,7911376953125E-05;0,782470703125;4;5419;0;-0,00780637037963868;1 mA;
0,73974609375;139,139736648706;-7,9254150390625E-05;0,738983154296875;4;5437;0;-0,00780637037963868;1 mA;
0,69580078125;139,578936647597;-7,8948974609375E-05;0,69512939453125;4;5455;0;-0,00780637037963868;1 mA;
0,65185546875;140,018136646488;-7,8399658203125E-05;0,65155029296875;4;5473;0;-0,00780637037963868;1 mA;
0,60791015625;140,457336645379;-8,905029296875E-05;0,60736083984375;4;5491;0;-0,00780637037963868;1 mA;
0,56396484375;140,89653664427;-8,8104248046875E-05;0,563446044921875;4;5509;0;-0,00780637037963868;1 mA;
0,52001953125;141,335736643162;-8,831787109375E-05;0,519561767578125;4;5527;0;-0,00780637037963868;1 mA;
0,47607421875;141,774936642053;-8,88671875E-05;0,47564697265625;4;5545;0;-0,00780637037963868;1 mA;
0,43212890625;142,214136640944;-8,70361328125E-05;0,431793212890625;4;5563;0;-0,00780637037963868;1 mA;
0,38818359375;142,653336639835;-8,9691162109375E-05;0,388092041015625;4;5581;0;-0,00780637037963868;100 µA;
0,34423828125;143,092536638726;-8,60595703125E-05;0,34393310546875;4;5599;0;-0,00780637037963868;1 mA;
0,30029296875;143,531736637617;-8,6883544921875E-05;0,30010986328125;4;5617;0;-0,00780637037963868;1 mA;
0,25634765625;143,970936636508;-8,6212158203125E-05;0,256195068359375;4;5635;0;-0,00780637037963868;1 mA;
0,21240234375;144,410136635399;-8,5235595703125E-05;0,212371826171875;4;5653;0;-0,00780637037963868;1 mA;
0,16845703125;144,849336634291;-8,5357666015625E-05;0,168365478515625;4;5671;0;-0,00780637037963868;1 mA;
0,12451171875;145,288536633182;-8,58154296875E-05;0,124481201171875;4;5689;0;-0,00780637037963868;1 mA;
0,08056640625;145,727736632073;-8,551025390625E-05;0,080596923828125;4;5707;0;-0,00780637037963868;1 mA;
0,03662109375;146,166936630964;-8,48388671875E-05;0,0365234375;4;5725;0;-0,00780637037963868;1 mA;
-0,00732421875;146,606136629855;-8,3770751953125E-05;-0,00714111328125;4;5743;0;-0,00780637037963868;1 mA;
-0,05126953125;147,045336628746;-8,2122802734375E-05;-0,050994873046875;4;5761;0;-0,00780637037963868;1 mA;
-0,09521484375;147,484536627637;-8,43505859375E-05;-0,0948486328125;4;5779;0;-0,00780637037963868;1 mA;
-0,13916015625;147,923736626528;-8,53271484375E-05;-0,138702392578125;4;5797;0;-0,00780637037963868;1 mA;
-0,18310546875;148,36293662542;-8,41064453125E-05;-0,182464599609375;4;5815;0;-0,00780637037963868;1 mA;
-0,22705078125;148,802136624311;-8,4503173828125E-05;-0,226318359375;4;5833;0;-0,00780637037963868;1 mA;
-0,27099609375;149,241336623202;-8,3343505859375E-05;-0,27020263671875;4;5851;0;-0,00780637037963868;1 mA;
-0,31494140625;149,680536622093;-8,3099365234375E-05;-0,313995361328125;4;5869;0;-0,00780637037963868;1 mA;
-0,35888671875;150,119736620984;-8,3831787109375E-05;-0,357818603515625;4;5887;0;-0,00780637037963868;1 mA;
-0,40283203125;150,558936619875;-8,3160400390625E-05;-0,401580810546875;4;5905;0;-0,00780637037963868;1 mA;
-0,44677734375;150,998136618766;-8,4136962890625E-05;-0,445404052734375;4;5923;0;-0,00780637037963868;1 mA;
-0,49072265625;151,437336617657;-8,0535888671875E-05;-0,489166259765625;4;5941;0;-0,00780637037963868;1 mA;
-0,53466796875;151,876536616549;-8,062744140625E-05;-0,532989501953125;4;5959;0;-0,00780637037963868;1 mA;
-0,57861328125;152,31573661544;-8,056640625E-05;-0,576690673828125;4;5977;0;-0,00780637037963868;1 mA;
-0,62255859375;152,754936614331;-8,001708984375E-05;-0,6204833984375;4;5995;0;-0,00780637037963868;1 mA;
-0,66650390625;153,194136613222;-7,891845703125E-05;-0,664459228515625;4;6013;0;-0,00780637037963868;1 mA;
-0,71044921875;153,633336612113;-7,818603515625E-05;-0,708251953125;4;6031;0;-0,00780637037963868;1 mA;
-0,75439453125;154,072536611004;-7,6812744140625E-05;-0,75225830078125;4;6049;0;-0,00780637037963868;1 mA;
-0,79833984375;154,511736609895;-7,757568359375E-05;-0,7965087890625;4;6067;0;-0,00780637037963868;1 mA;
-0,84228515625;154,950936608786;-7,6995849609375E-05;-0,84014892578125;4;6085;0;-0,00780637037963868;1 mA;
-0,88623046875;155,390136607678;-4,5501708984375E-06;-0,88409423828125;4;6103;0;-0,00780637037963868;1 mA;
-0,93017578125;155,829336606569;-7,58056640625E-05;-0,92864990234375;4;6121;0;-0,00780637037963868;1 mA;
-0,97412109375;156,26853660546;-7,6385498046875E-05;-0,9716796875;4;6139;0;-0,00780637037963868;1 mA;
-0,98388671875;156,707736604351;-7,928466796875E-05;-0,9814453125;4;6157;0;-0,00780637037963868;1 mA;
-0,93994140625;157,146936603242;-8,013916015625E-05;-0,93780517578125;4;6175;0;-0,00780637037963868;1 mA;
-0,89599609375;157,586136602133;-8,087158203125E-05;-0,89385986328125;4;6193;0;-0,00780637037963868;1 mA;
-0,85205078125;158,025336601024;-8,0902099609375E-05;-0,84930419921875;4;6211;0;-0,00780637037963868;1 mA;
-0,80810546875;158,464536599916;-8,1756591796875E-05;-0,80657958984375;4;6229;0;-0,00780637037963868;1 mA;
-0,76416015625;158,903736598807;-8,197021484375E-05;-0,76263427734375;4;6247;0;-0,00780637037963868;1 mA;
-0,72021484375;159,342936597698;-8,251953125E-05;-0,7181396484375;4;6265;0;-0,00780637037963868;1 mA;
-0,67626953125;159,782136596589;-8,2000732421875E-05;-0,6741943359375;4;6283;0;-0,00780637037963868;1 mA;
-0,63232421875;160,22133659548;-8,111572265625E-05;-0,63037109375;4;6301;0;-0,00780637037963868;1 mA;
-0,58837890625;160,660536594371;-8,1695556640625E-05;-0,58648681640625;4;6319;0;-0,00780637037963868;1 mA;
-0,54443359375;161,099736593262;-8,2427978515625E-05;-0,5426025390625;4;6337;0;-0,00780637037963868;1 mA;
-0,50048828125;161,538936592153;-8,0841064453125E-05;-0,498870849609375;4;6355;0;-0,00780637037963868;1 mA;
-0,45654296875;161,978136591045;-8,04443359375E-05;-0,454986572265625;4;6373;0;-0,00780637037963868;1 mA;
-0,41259765625;162,417336589936;-7,9132080078125E-05;-0,41119384765625;4;6391;0;-0,00780637037963868;1 mA;
-0,36865234375;162,856536588827;-7,8887939453125E-05;-0,36749267578125;4;6409;0;-0,00780637037963868;1 mA;
-0,32470703125;163,295736587718;-7,8887939453125E-05;-0,3236083984375;4;6427;0;-0,00780637037963868;1 mA;
-0,28076171875;163,734936586609;-7,9010009765625E-05;-0,279815673828125;4;6445;0;-0,00780637037963868;1 mA;
-0,23681640625;164,1741365855;-7,8369140625E-05;-0,2359619140625;4;6463;0;-0,00780637037963868;1 mA;
-0,19287109375;164,613336584391;-7,8643798828125E-05;-0,192169189453125;4;6481;0;-0,00780637037963868;1 mA;
-0,14892578125;165,052536583282;-7,7392578125E-05;-0,148406982421875;4;6499;0;-0,00780637037963868;1 mA;
-0,10498046875;165,491736582174;-7,7972412109375E-05;-0,10467529296875;4;6517;0;-0,00780637037963868;1 mA;
-0,06103515625;165,930936581065;-7,6934814453125E-05;-0,060882568359375;4;6535;0;-0,00780637037963868;1 mA;
-0,01708984375;166,370136579956;-7,6324462890625E-05;-0,0170654296875;4;6553;0;-0,00780637037963868;1 mA;
0,02685546875;166,809336578847;-7,6263427734375E-05;0,0267822265625;5;6571;0;-0,00555336576049805;1 mA;
0,07080078125;167,248536577738;-7,672119140625E-05;0,0706787109375;5;6589;0;-0,00555336576049805;1 mA;
0,11474609375;167,687736576629;-7,72705078125E-05;0,114593505859375;5;6607;0;-0,00555336576049805;1 mA;
0,15869140625;168,12693657552;-3,5003662109375E-05;0,158599853515625;5;6625;0;-0,00555336576049805;100 µA;
0,20263671875;168,566136574411;-7,5653076171875E-05;0,202545166015625;5;6643;0;-0,00555336576049805;1 mA;
0,24658203125;169,005336573303;-7,58056640625E-05;0,246368408203125;5;6661;0;-0,00555336576049805;1 mA;
0,29052734375;169,444536572194;-7,7606201171875E-05;0,290313720703125;5;6679;0;-0,00555336576049805;1 mA;
0,33447265625;169,883736571085;-7,7789306640625E-05;0,334259033203125;5;6697;0;-0,00555336576049805;1 mA;
0,37841796875;170,322936569976;-7,830810546875E-05;0,378204345703125;5;6715;0;-0,00555336576049805;1 mA;
0,42236328125;170,762136568867;-7,6385498046875E-05;0,422119140625;5;6733;0;-0,00555336576049805;1 mA;
0,46630859375;171,201336567758;-7,58056640625E-05;0,465972900390625;5;6751;0;-0,00555336576049805;1 mA;
0,51025390625;171,640536566649;-7,6446533203125E-05;0,509918212890625;5;6769;0;-0,00555336576049805;1 mA;
0,55419921875;172,07973656554;-7,550048828125E-05;0,5538330078125;5;6787;0;-0,00555336576049805;1 mA;
0,59814453125;172,518936564432;-7,427978515625E-05;0,597686767578125;5;6805;0;-0,00555336576049805;1 mA;
0,64208984375;172,958136563323;-7,28759765625E-05;0,641571044921875;5;6823;0;-0,00555336576049805;1 mA;
0,68603515625;173,397336562214;-7,171630859375E-05;0,685272216796875;5;6841;0;-0,00555336576049805;1 mA;
0,72998046875;173,836536561105;-0,000302032470703125;0,72955322265625;5;6859;0;-0,00555336576049805;100 µA;
0,77392578125;174,275736559996;-0,000321746826171875;0,772705078125;5;6877;0;-0,00555336576049805;100 µA;
0,81787109375;174,714936558887;-0,000323486328125;0,81634521484375;5;6895;0;-0,00555336576049805;100 µA;
0,86181640625;175,154136557778;-0,000333740234375;0,860595703125;5;6913;0;-0,00555336576049805;100 µA;
0,90576171875;175,593336556669;-0,000349700927734375;0,904541015625;5;6931;0;-0,00555336576049805;100 µA;
0,94970703125;176,032536555561;-0,000379913330078125;0,94818115234375;5;6949;0;-0,00555336576049805;100 µA;Current overload
0,99365234375;176,471736554452;-0,00041436767578125;0,992431640625;5;6967;0;-0,00555336576049805;100 µA;Current overload
0,96435546875;176,910936553343;-7,476806640625E-05;0,963134765625;5;6985;0;-0,00555336576049805;1 mA;
0,92041015625;177,350136552234;-7,586669921875E-05;0,919189453125;5;7003;0;-0,00555336576049805;1 mA;
0,87646484375;177,789336551125;-7,647705078125E-05;0,87554931640625;5;7021;0;-0,00555336576049805;1 mA;
0,83251953125;178,228536550016;-7,6934814453125E-05;0,831298828125;5;7039;0;-0,00555336576049805;1 mA;
0,78857421875;178,667736548907;-7,7911376953125E-05;0,787353515625;5;7057;0;-0,00555336576049805;1 mA;
0,74462890625;179,106936547798;-7,5347900390625E-05;0,743621826171875;5;7075;0;-0,00555336576049805;1 mA;
0,70068359375;179,54613654669;-7,4981689453125E-05;0,699920654296875;5;7093;0;-0,00555336576049805;1 mA;
0,65673828125;179,985336545581;-7,4676513671875E-05;0,6561279296875;5;7111;0;-0,00555336576049805;1 mA;
0,61279296875;180,424536544472;-7,3516845703125E-05;0,612213134765625;5;7129;0;-0,00555336576049805;1 mA;
0,56884765625;180,863736543363;-6,427001953125E-06;0,568267822265625;5;7147;0;-0,00555336576049805;1 mA;
0,52490234375;181,302936542254;-7,2662353515625E-05;0,524383544921875;5;7165;0;-0,00555336576049805;1 mA;
0,48095703125;181,742136541145;-7,5592041015625E-05;0,480621337890625;5;7183;0;-0,00555336576049805;1 mA;
0,43701171875;182,181336540036;-7,763671875E-05;0,4366455078125;5;7201;0;-0,00555336576049805;1 mA;
0,39306640625;182,620536538927;-0,000504425048828125;0,393463134765625;5;7219;0;-0,00555336576049805;100 µA;Current overload
0,34912109375;183,059736537819;-0,000516082763671875;0,34967041015625;5;7237;0;-0,00555336576049805;100 µA;Current overload
0,30517578125;183,49893653671;-0,0005079345703125;0,3056640625;5;7255;0;-0,00555336576049805;100 µA;Current overload
0,26123046875;183,938136535601;-0,000499908447265625;0,2618408203125;5;7273;0;-0,00555336576049805;100 µA;Current overload
0,21728515625;184,377336534492;-0,000475860595703125;0,217864990234375;5;7291;0;-0,00555336576049805;100 µA;Current overload
0,17333984375;184,816536533383;-0,00045794677734375;0,17388916015625;5;7309;0;-0,00555336576049805;100 µA;Current overload
0,12939453125;185,255736532274;-7,6202392578125E-05;0,129302978515625;5;7327;0;-0,00555336576049805;1 mA;
0,08544921875;185,694936531165;-7,53173828125E-05;0,0853271484375;5;7345;0;-0,00555336576049805;1 mA;
0,04150390625;186,134136530056;-7,40966796875E-05;0,04158935546875;5;7363;0;-0,00555336576049805;1 mA;
-0,00244140625;186,573336528948;-7,2052001953125E-05;-0,00234375000000001;5;7381;0;-0,00555336576049805;1 mA;
-0,04638671875;187,012536527839;-7,366943359375E-05;-0,046026611328125;5;7399;0;-0,00555336576049805;1 mA;
-0,09033203125;187,45173652673;-7,3333740234375E-05;-0,0899658203125;5;7417;0;-0,00555336576049805;1 mA;
-0,13427734375;187,890936525621;-7,2052001953125E-05;-0,133636474609375;5;7435;0;-0,00555336576049805;1 mA;
-0,17822265625;188,330136524512;-6,976318359375E-05;-0,177581787109375;5;7453;0;-0,00555336576049805;1 mA;
-0,22216796875;188,769336523403;-0,0002779541015625;-0,220916748046875;5;7471;0;-0,00555336576049805;100 µA;
-0,26611328125;189,208536522294;-0,00023529052734375;-0,26483154296875;5;7489;0;-0,00555336576049805;100 µA;
-0,31005859375;189,647736521185;-0,00022650146484375;-0,308624267578125;5;7507;0;-0,00555336576049805;100 µA;
-0,35400390625;190,086936520077;-0,000223419189453125;-0,3525390625;5;7525;0;-0,00555336576049805;100 µA;
-0,39794921875;190,526136518968;-0,000207855224609375;-0,3963623046875;5;7543;0;-0,00555336576049805;100 µA;
-0,44189453125;190,965336517859;-0,000192901611328125;-0,440093994140625;5;7561;0;-0,00555336576049805;100 µA;
-0,48583984375;191,40453651675;-0,00015887451171875;-0,484100341796875;5;7579;0;-0,00555336576049805;100 µA;
-0,52978515625;191,843736515641;-0,000147735595703125;-0,52783203125;5;7597;0;-0,00555336576049805;100 µA;
-0,57373046875;192,282936514532;-0,000135345458984375;-0,571685791015625;5;7615;0;-0,00555336576049805;100 µA;
-0,61767578125;192,722136513423;-0,00013189697265625;-0,615447998046875;5;7633;0;-0,00555336576049805;100 µA;
-0,66162109375;193,161336512315;-0,0001295166015625;-0,65936279296875;5;7651;0;-0,00555336576049805;100 µA;
-0,70556640625;193,600536511206;-1,12579345703125E-05;-0,703460693359375;5;7669;0;-0,00555336576049805;100 µA;
-0,74951171875;194,039736510097;-0,000127899169921875;-0,747100830078125;5;7687;0;-0,00555336576049805;100 µA;
-0,79345703125;194,478936508988;-0,000123870849609375;-0,7916259765625;5;7705;0;-0,00555336576049805;100 µA;
-0,83740234375;194,918136507879;-0,000137359619140625;-0,83526611328125;5;7723;0;-0,00555336576049805;100 µA;
-0,88134765625;195,35733650677;-0,000185455322265625;-0,87982177734375;5;7741;0;-0,00555336576049805;100 µA;
-0,92529296875;195,796536505661;-0,00022955322265625;-0,92315673828125;5;7759;0;-0,00555336576049805;100 µA;
-0,96923828125;196,235736504552;-0,00025592041015625;-0,96771240234375;5;7777;0;-0,00555336576049805;100 µA;
-0,98876953125;196,674936503444;-0,000282501220703125;-0,98724365234375;5;7795;0;-0,00555336576049805;100 µA;
-0,94482421875;197,114136502335;-7,2174072265625E-05;-0,9429931640625;5;7813;0;-0,00555336576049805;1 mA;
-0,90087890625;197,553336501226;-7,2479248046875E-05;-0,8990478515625;5;7831;0;-0,00555336576049805;1 mA;
-0,85693359375;197,992536500117;-7,14111328125E-05;-0,85479736328125;5;7849;0;-0,00555336576049805;1 mA;
-0,81298828125;198,431736499008;-7,080078125E-05;-0,810546875;5;7867;0;-0,00555336576049805;1 mA;
-0,76904296875;198,870936497899;-7,080078125E-05;-0,7666015625;5;7885;0;-0,00555336576049805;1 mA;
-0,72509765625;199,31013649679;-2,1636962890625E-05;-0,72296142578125;5;7903;0;-0,00555336576049805;100 µA;
-0,68115234375;199,749336495681;-7,32421875E-05;-0,67889404296875;5;7921;0;-0,00555336576049805;1 mA;
-0,63720703125;200,188536494573;-7,3028564453125E-05;-0,63507080078125;5;7939;0;-0,00555336576049805;1 mA;
-0,59326171875;200,627736493464;-7,342529296875E-05;-0,591339111328125;5;7957;0;-0,00555336576049805;1 mA;
-0,54931640625;201,066936492355;-7,373046875E-05;-0,5474853515625;5;7975;0;-0,00555336576049805;1 mA;
-0,50537109375;201,506136491246;-7,415771484375E-05;-0,503662109375;5;7993;0;-0,00555336576049805;1 mA;
-0,46142578125;201,945336490137;-7,6385498046875E-05;-0,459930419921875;5;8011;0;-0,00555336576049805;1 mA;
-0,41748046875;202,384536489028;-7,5958251953125E-05;-0,416046142578125;5;8029;0;-0,00555336576049805;1 mA;
-0,37353515625;202,823736487919;-7,6568603515625E-05;-0,37225341796875;5;8047;0;-0,00555336576049805;1 mA;
-0,32958984375;203,26293648681;-7,794189453125E-05;-0,328521728515625;5;8065;0;-0,00555336576049805;1 mA;
-0,28564453125;203,702136485702;-7,91015625E-05;-0,284698486328125;5;8083;0;-0,00555336576049805;1 mA;
-0,24169921875;204,141336484593;-7,989501953125E-05;-0,240753173828125;5;8101;0;-0,00555336576049805;1 mA;
-0,19775390625;204,580536483484;-8,0474853515625E-05;-0,19708251953125;5;8119;0;-0,00555336576049805;1 mA;
-0,15380859375;205,019736482375;-7,8857421875E-05;-0,153411865234375;5;8137;0;-0,00555336576049805;1 mA;
-0,10986328125;205,458936481266;-8,1756591796875E-05;-0,1094970703125;5;8155;0;-0,00555336576049805;1 mA;
-0,06591796875;205,898136480157;-8,1085205078125E-05;-0,065765380859375;5;8173;0;-0,00555336576049805;1 mA;
-0,02197265625;206,337336479048;-8,050537109375E-05;-0,0217742919921875;5;8191;0;-0,00555336576049805;1 mA;
0;206,556936478494;-8,062744140625E-05;0,000143432617187494;5;8200;0;-0,00555336576049805;1 mA;